Folder: autobetsi/csv (part 2)

File: UiO-66.csv
Relative Pressure (P/Po), Quantity Adsorbed (cm3/g STP)
1.23E-07,2.51421
2.48E-07,5.03725
3.50E-07,7.55824
5.48E-07,10.0859
7.55E-07,12.5973
9.99E-07,15.1046
1.22E-06,17.6388
1.47E-06,20.1634
1.97E-06,22.6913
2.84E-06,25.2215
3.85E-06,27.7319
5.17E-06,30.2541
6.88E-06,32.7757
8.83E-06,35.2992
1.14E-05,37.8351
1.44E-05,40.3645
1.78E-05,42.8806
2.15E-05,45.4115
2.54E-05,47.9454
2.91E-05,50.4589
3.30E-05,52.9952
3.67E-05,55.5098
4.04E-05,58.0454
4.40E-05,60.5875
4.76E-05,63.1276
5.12E-05,65.6682
5.48E-05,68.203
5.86E-05,70.7494
6.25E-05,73.2719
6.65E-05,75.7998
7.07E-05,78.3309
7.53E-05,80.8654
7.99E-05,83.3858
8.49E-05,85.9259
9.02E-05,88.4503
9.59E-05,90.9802
0.000101866,93.5077
0.00010843,96.0294
0.000115669,98.5676
0.000123923,101.098
0.000132532,103.644
0.000142085,106.172
0.000152225,108.699
0.000163528,111.219
0.000175053,113.744
0.000188404,116.274
0.000203102,118.799
0.000219533,121.325
0.000237273,123.848
0.000256856,126.378
0.000278382,128.905
0.000302122,131.428
0.000328336,133.966
0.000357464,136.488
0.000389421,139.008
0.000425039,141.532
0.00046396,144.039
0.000507494,146.548
0.000555773,149.06
0.000609421,151.57
0.000668535,154.061
0.000733715,156.534
0.000805316,158.995
0.0008836,161.444
0.000969555,163.872
0.001180284,168.6
0.001369924,172.5
0.001659897,177.7
0.001983868,182.643
0.002481232,188.8
0.0029778,193.956
0.003900276,202.086
0.004901601,209.48
0.005748579,214.955
0.006815202,220.954
0.007932263,226.471
0.008908562,230.793
0.009924807,234.943
0.0122161,242
0.0153445,250.3
0.020657,260.212
0.029154,267.667
0.0430383,274.492
0.05607993,278.478
0.060133,279.479
0.0703102,281.616
0.0804443,283.398
0.090171,284.871
0.100546,286.245
0.110564,287.446
0.120602,288.518
0.130586,289.501
0.140095,290.39
0.150375,291.264
0.160508,292.051
0.170668,292.805
0.179966,293.487
0.190646,294.209
0.200302,294.826
0.210335,295.439
0.220488,296.031
0.230573,296.586
0.240847,297.154
0.250568,297.665
0.260795,298.182
0.269581,298.636
0.280302,299.134
0.290696,299.612
0.300169,300
0.319237,300.844
0.340946,301.743
0.360937,302.537
0.380701,303.296
0.401084,304.066
0.421098,304.795
0.440715,305.508
0.460879,306.227
0.479423,306.926
0.500683,307.676
0.519295,308.373
0.540989,309.113
0.559147,309.806
0.580858,310.577
0.600769,311.301
0.620649,312.02
0.640945,312.783
0.660587,313.537
0.680476,314.357
0.699493,315.23
0.71941,316.191
0.739506,317.191
0.759643,318.301
0.779643,319.48
0.799645,320.762
0.809048,321.467
0.820769,322.313
0.829733,323.057
0.839253,323.915
0.850506,324.914
0.860631,325.976
0.869346,326.946
0.880763,328.291
0.889853,329.5
0.900879,331.125
0.909389,332.582
0.919316,334.498
0.929206,336.777
0.939179,339.622
0.94913,343.327
0.986264,404.226
0.989723,439.351
0.992202,501.973

File: Zeolite-13X.csv
Relative Pressure (P/Po), Quantity Adsorbed (cm3/g STP)
0.00002,2.02648
0.0000579,2.54124
0.0000907,3.5472
0.0000997,5.86678
0.000120002,15.08
0.000135878,25.7629
0.000149981,40.33
0.000153726,45.6781
0.000162203,64.1224
0.000169951,75.52
0.00017989,84.0243
0.000206222,88.1031
0.000247599,90.4145
0.000279922,98.4
0.00030673,110.313
0.000320061,118.2
0.000331941,130.17
0.000340176,149.91
0.000410145,162.7
0.000537827,169.283
0.000900104,175.9
0.001686888,181.742
0.00209589,183.171
0.002623178,184.567
0.003299735,185.915
0.004185916,187.208
0.005255232,188.356
0.006657108,189.491
0.008491008,190.615
0.01080895,191.675
0.0136723,192.662
0.0173791,193.63
0.02212,194.546
0.0279722,195.401
0.0355024,196.262
0.04518963,197.087
0.0571048,197.855
0.0735038,198.662
0.0928973,199.382
0.117365,200.068
0.148033,200.718
0.186992,201.342
0.23627,201.92
0.298619,202.453
0.376376,202.916
0.475677,203.309
0.5396658,203.521
0.603275,203.693
0.644041,203.808
0.684269,203.919
0.724374,204.028
0.764422,204.153
0.790647,204.246
0.815998,204.364
0.841458,204.476
0.866632,204.617
0.915619,205.033
0.942539,205.51
0.967869,206.364

File: ZIF-8.csv
Relative Pressure (P/Po), Quantity Adsorbed (cm3/g STP)
4.20E-05,20.349
9.97E-05,40.698
0.000148121,60.914
0.000188506,81.263
0.000224278,101.612
0.000259844,122.094
0.000299953,142.31
0.000349057,162.26
0.000417927,183.54
0.000521085,203.49
0.000684773,223.44
0.000949862,243.39
0.001422718,263.34
0.00193056,275.31
0.002936687,288.61
0.003871099,295.26
0.004945074,301.91
0.005730774,305.9
0.006698907,312.55
0.008054492,323.19
0.008892109,328.51
0.009781263,332.5
0.02074716,356.44
0.0291109,364.42
0.0381637,400.33
0.04836001,413.63
0.0637743,420.28
0.0697769,421.61
0.08004303,424.27
0.0900836,425.6
0.10043,428.26
0.145027,433.58
0.20271,438.9
0.25486,442.89
0.305344,446.88
0.354387,449.54
0.39927,452.2
0.449413,454.86
0.499422,457.52
0.549131,460.18
0.599553,462.84
0.648966,465.5
0.699056,468.16
0.748964,470.82
0.7992439,474.81
0.809236,476.14
0.819317,476.14
0.829267,477.47
0.839404,478.8
0.850175,480.13
0.859576,481.46
0.86908,482.79
0.879065,484.12
0.889537,485.45
0.899628,488.11
0.909863,489.44
0.919855,492.1
0.929147,494.76
0.939056,498.75
0.948885,502.74
0.959088,509.39
0.969052,517.37
0.978076,529.34
0.986984,549.29
0.994456,585.2