Folder: autobetsi/csv

Note: README.md
Development of automatic application of betsi[^1] to a directory of isotherms (`.csv`). Hopes to make use of [betsi](https://github.com/nakulrampal/betsi-gui) more convenient. Works on Linux, (Rocky Linux 9.1 (Blue Onyx) x86_64) no idea on other systems. I hope it is useful to the adsorption community. 

# Installation

- Follow instructions to install [betsi-gui](https://github.com/nakulrampal/betsi-gui) in a conda virtual environment.
- Activate venv.
- clone this repo.
- `cd` into the cloned repo, and do `pip install .`

# Basic use

Running `autobetsi` from the command line in a directory `.` runs `betsi` on the contents of `./csv/`. Initial parameters;

| Parameter		| Value		|
| -------------------- 	| ------------- |
| 'max_perc_error' 	| 20.0		|
| 'min_num_pts'		| 10		|
| 'min_r2'		| 0.995		|
| 'use_rouq1'		| True		|
| 'use_rouq2'		| True		|
| 'use_rouq3'		| True		|
| 'use_rouq4'		| True		|
| 'use_rouq5'		| False		|

If an isotherm throws an exception, this typically means that a BET area cannot be found with the current conditions. Any such files are added to a list of exceptions, then reattempted with iteratively reduced `'min_num_points'` until a result is achieved.

Finally, for convenience results are tabulated for each analysis present in `./betsi/` 

You can test it on isotherms in [`./autobetsi/csv/`](./autobetsi/csv/). These are copied from [betsi-gui](https://github.com/nakulrampal/betsi-gui).

# Advanced

The functions in `autobetsi.py` can be imported and used in further scripts.

# TODO

- `betsi` is picky about isotherms. ~~Make cleaning/conversion function.~~ Expand cleaning function!
- Allow use of tags from commandline.
- ~~Silence `betsi`'s warnings from `seaborn`, `matplotlib` etc.~~
- Give up less hard; standard autobetsi to try combinations of iteratively looser parameters instead of just reducing `'min_num_points'`. Requires logical progression, and minimum strictness.
- Threading ???


[^1]: Osterrieth, Johannes WM, James Rampersad, David Madden, Nakul Rampal, Luka Skoric, Bethany Connolly, Mark D. Allendorf et al. "How reproducible are surface areas calculated from the BET equation?." _Advanced Materials_ (2022): 2201502.

File: Al_fumarate.csv
Relative Pressure (P/Po), Quantity Adsorbed (cm3/g STP)
6.51E-05,0.178173
9.45E-05,0.349631
0.000140029,0.599944
0.000168502,1.15515
0.000212523,3.03911
0.000256869,22.9596
0.000285953,42.8873
0.000318927,62.806
0.00032856,63.5863
0.000397185,67.5014
0.000427058,87.4391
0.000458442,107.325
0.000511064,127.186
0.000580619,145.276
0.000637337,156.142
0.000890495,175.838
0.001019138,182.528
0.001355172,190.539
0.001632038,195.273
0.002111946,200.351
0.002599008,203.99
0.003298337,208.065
0.004368838,212.166
0.005230467,214.688
0.006777789,218.058
0.008474152,220.905
0.0107617,223.99
0.0140771,227.137
0.0170254,229.349
0.0221382,232.301
0.027921,234.889
0.0355329,237.453
0.0447292,239.848
0.0568625,242.313
0.0746405,244.988
0.0944469,247.283
0.119932,249.593
0.14986,251.76
0.188607,254.05
0.237609,256.44
0.302415,259.24
0.375745,262.296
0.474393,266.757
0.538919,270.347
0.60262,274.671
0.644038,278.143
0.684098,282.08
0.723912,286.64
0.763564,292.059
0.790607,296.302
0.815629,300.722
0.840577,305.775
0.865723,311.738
0.91707,330.684
0.94041,346.424
0.96198,368.415
0.97071,381.535

File: DMOF-1.csv
Relative Pressure (P/Po), Quantity Adsorbed (cm3/g STP)
0.0000475,0.291525
0.0000969,0.576831
0.000123181,0.620049
0.000128577,0.658136
0.000164533,0.952826
0.000217301,5.9964
0.000257214,15.9663
0.000279122,25.9374
0.000300744,35.9062
0.000322968,45.8747
0.000351409,56.1855
0.000368692,66.1524
0.000383691,76.1194
0.000393716,86.0866
0.000410668,96.0527
0.000431396,106.022
0.000433515,115.991
0.000434096,125.956
0.00044681,135.92
0.000448218,155.853
0.000460131,212.5
0.000469896,242.8
0.000479868,263.6
0.000495921,293.589
0.000505841,312.603
0.000522755,322.559
0.000561279,332.508
0.000612371,351.476
0.000762905,361.397
0.001046492,371.29
0.001338775,376.7
0.001690835,381.172
0.002200656,385.8
0.002830961,390.919
0.003348623,396.201
0.003953084,406.052
0.004340588,415.523
0.005364889,425.145
0.006599917,430.69
0.008409006,435.144
0.0106471,438.35
0.01347842,440.784
0.0174008,442.841
0.0220374,444.346
0.0288725,445.708
0.0379485,446.804
0.0432212,447.246
0.0563305,448.001
0.0757048,448.672
0.0967475,449.124
0.121067,449.47
0.148104,449.732
0.182104,449.965
0.230198,450.201
0.294028,450.436
0.376153,450.67
0.47515,450.957
0.539635,451.201
0.602891,451.544
0.644113,451.874
0.683964,452.334
0.723677,453.015
0.762441,454.126
0.7894,455.385
0.815017,457.081
0.840146,459.277
0.865212,462.03
0.930034,467.33
0.95885,467.786
0.983378,468.348

File: EXP_ZIF-8powder.csv
Relative Pressure (P/Po),Quantity Adsorbed (cm³/g STP)
4.19974E-05,20.2827
9.96909E-05,40.673
0.000148121,60.8768
0.000188506,81.2511
0.000224278,101.619
0.000259844,122.03
0.000299953,142.399
0.000349057,162.786
0.000417927,183.077
0.000521085,203.347
0.000684773,223.567
0.000949862,243.586
0.001422718,263.188
0.00193056,275.084
0.002936687,288.422
0.003871099,295.855
0.004945074,301.799
0.005730774,305.33
0.006698907,312.628
0.008054492,323.337
0.008892109,328.072
0.009781263,332.321
0.02074716,356.461
0.0291109,364.384
0.0381637,400.802
0.04836001,414.136
0.0637743,420.063
0.0697769,421.703
0.08004303,424.026
0.0900836,425.975
0.10043,427.725
0.145027,433.484
0.20271,438.997
0.25486,443.154
0.305344,446.727
0.354387,449.933
0.39927,452.62
0.449413,455.327
0.499422,457.832
0.549131,460.224
0.599553,462.618
0.648966,465.068
0.699056,467.854
0.748964,471.047
0.7992439,474.815
0.809236,475.769
0.819317,476.77
0.829267,477.786
0.839404,478.859
0.850175,480.095
0.859576,481.218
0.86908,482.572
0.879065,484.124
0.889537,485.88
0.899628,487.736
0.909863,489.885
0.919855,492.417
0.929147,495.204
0.939056,498.743
0.948885,503.23
0.959088,509.388
0.969052,517.72
0.978076,529.029
0.986984,548.985
0.994456,585.441

File: HKUST-1.csv
Relative Pressure (P/Po), Quantity Adsorbed (cm3/g STP)
4.60E-07,29.2422
8.08E-07,58.6914
1.24E-06,88.1823
1.95E-06,117.771
3.47E-06,147.021
1.98E-05,176.627
3.01E-05,188.1
3.99E-05,197.3
4.84E-05,205.734
6.00E-05,219.4
7.19E-05,234.899
8.00E-05,247.5
9.10E-05,263.906
0.000122165,292.899
0.000169951,309.4
0.000240034,320.839
0.000469896,333.9
0.001029937,346.752
0.002010342,351.561
0.003045762,354.006
0.003948507,355.426
0.004830186,356.484
0.005912671,357.525
0.006904737,358.317
0.007945685,359.036
0.00893684,359.633
0.009950202,360.2
0.0195664,363.856
0.02937333,366.721
0.0395738,369.6
0.0530488,373.587
0.0597825,375.548
0.0702859,377.661
0.0803821,379.273
0.0906934,380.715
0.100864,381.989
0.145578,386.47
0.201715,390.405
0.255898,393.273
0.306355,395.433
0.355727,396.995
0.400711,398.472
0.450996,399.931
0.500912,401.229
0.550729,402.389
0.60054,403.447
0.650424,404.438
0.699409,405.32
0.74943,406.162
0.79959,406.977
0.810604,407.276
0.82075,407.439
0.830251,407.588
0.840611,407.741
0.85009,407.871
0.86014,408.01
0.870537,408.164
0.880439,408.312
0.890352,408.441
0.900085,408.576
0.909886,408.727
0.920408,408.878
0.930174,409.027
0.940068,409.168
0.949687,409.337
0.959834,409.498
0.969298,409.673
0.979272,409.882
0.989261,410.101
0.998416,410.547

File: MCM-41.csv
Relative Pressure (P/Po), Quantity Adsorbed (cm3/g STP)
9.79E-03,141.85
1.30E-02,147.3
0.0169922,153.9
0.0219937,161.7
0.02998674,172.9
0.039658,183.788
0.0560226,197.1
0.0712954,206.89
0.104928,225.112
0.129699,236.616
0.159961,249.475
0.191746,262.327
0.222604,274.802
0.252936,287.723
0.284027,303.513
0.305135,320.3
0.316013,333.943
0.333871,392.7
0.343961,420.773
0.372991,458.9
0.427552,493.679
0.447576,495.091
0.476895,496.975
0.499736,498.291
0.529858,499.888
0.560582,501.384
0.591213,502.776
0.621879,504.132
0.652785,505.412
0.683268,506.643
0.713948,507.858
0.744564,509.086
0.775127,510.351
0.806788,511.668
0.83655,512.973
0.867019,514.441
0.897226,516.307
0.937869,520.878

File: Mg-MOF-74.csv
Relative Pressure (P/Po), Quantity Adsorbed (cm3/g STP)
0.0000341,2.67973
0.0000585,3.33732
0.0000829,9.38407
0.000106975,29.275
0.000125602,49.1668
0.000144069,69.0553
0.000163778,88.934
0.000187348,108.805
0.000208741,117.643
0.00026291,123.382
0.00032538,143.255
0.000393299,163.055
0.00040154,166.149
0.000460131,177.7
0.000541423,185.866
0.000650309,188.426
0.000858217,194.449
0.001130007,201.05
0.001352074,204.545
0.001629688,207.859
0.002048444,211.851
0.002672633,216.356
0.00340465,219.856
0.004236093,222.369
0.005229068,224.474
0.006804549,227.019
0.008670638,229.092
0.0106025,230.66
0.0135606,232.492
0.0175136,234.253
0.02198175,235.694
0.0277976,237.144
0.0355583,238.641
0.0450877,240.064
0.0570843,241.482
0.0738528,242.98
0.0935045,244.418
0.117918,245.849
0.148441,247.347
0.187453,248.942
0.236738,250.673
0.301022,252.576
0.376151,254.571
0.475698,256.971
0.539979,258.31
0.603025,259.576
0.644358,260.291
0.684219,260.927
0.724397,261.538
0.764352,262.216
0.790607,262.679
0.815986,263.154
0.841262,263.725
0.866822,264.36
0.914684,266
0.942892,267.34
0.967733,269.159

File: MIL-100.csv
Relative Pressure (P/Po), Quantity Adsorbed (cm3/g STP)
0.001034,197.129
0.001108417,199.524
0.00118819,202.082
0.001273703,204.812
0.001365372,207.723
0.001463638,210.823
0.001568975,214.122
0.001681894,217.626
0.00180294,221.342
0.001932698,225.275
0.002071794,229.427
0.002220901,233.799
0.002380739,238.386
0.00255208,243.179
0.002735753,248.161
0.002932645,253.307
0.003143708,258.581
0.00336996,263.934
0.003612496,269.296
0.003872487,274.578
0.004151189,279.66
0.00444995,284.388
0.004770213,288.564
0.005113525,292.092
0.005481545,295.488
0.005876051,298.803
0.00629895,302.014
0.006752285,305.107
0.007238246,308.071
0.007759182,310.907
0.00831761,313.635
0.008916228,316.293
0.009557928,318.952
0.0102458,321.623
0.0109832,324.288
0.0117737,326.938
0.012621,329.57
0.0135293,332.182
0.01450305,334.783
0.0155468,337.391
0.0166657,340.041
0.01786517,342.79
0.0191509,345.701
0.0205292,348.674
0.0220067,351.682
0.0235905,354.729
0.02528833,357.829
0.02710833,361.007
0.0290593,364.303
0.0311507,367.757
0.0333926,371.106
0.03579589,374.459
0.0383721,378.203
0.0411338,382.88
0.0440941,388.544
0.0472676,395.508
0.0506694,404.619
0.0543161,416.005
0.05822525,424.172
0.0624157,430.917
0.0669078,436.115
0.0717231,440.087
0.076885,445.298
0.0824184,451.435
0.0883501,458.598
0.0947086,466.446
0.101525,472.619
0.108832,479.666
0.116664,491.159
0.12506,506.19
0.134061,523.444
0.143709,530.634
0.154052,533.161
0.165139,536.335
0.177024,540.586
0.189765,541.081
0.203422,543.618
0.218062,543.785
0.233756,545.891
0.25058,548.854
0.268614,549.487
0.287946,551.577
0.30867,552.569
0.330884,553.507
0.354698,555.523
0.380226,556.66
0.407591,558.336
0.436925,559.624
0.46837,560.132
0.502079,562.136
0.538213,563.958
0.576949,564.525
0.618472,565.805
0.662983,566.643
0.710698,568.492
0.761847,570.978
0.816677,571.492
0.875453,572.483
0.938459,574.941

File: MIL-101.csv
Relative Pressure (P/Po), Quantity Adsorbed (cm3/g STP)
7.24E-05,0.08753826
0.000143586,4.44849
0.000194756,24.3099
0.00022592,43.8685
0.000262361,63.7515
0.000320934,83.6313
0.000342678,84.5319
0.000410737,98.2231
0.000490593,118.09
0.000529528,128.917
0.000645145,148.75
0.000669906,149.072
0.000824694,168.938
0.001013574,188.706
0.00101671,188.845
0.00130365,207.716
0.00169959,227.374
0.00211443,241.675
0.00259059,254.863
0.003406121,271.878
0.004145448,284.585
0.005452415,302.159
0.006729352,316.21
0.008632363,333.191
0.0108917,349.607
0.0138006,366.73
0.0174006,384.151
0.02206847,402.768
0.0278236,422.141
0.034458,441.647
0.04178732,461.04
0.0448685,468.662
0.0530044,487.884
0.0548013,491.957
0.065061,514.104
0.0717499,528.264
0.081786,551.267
0.088454,568.141
0.0995423,591.886
0.114468,610.102
0.139194,629.696
0.155311,640.707
0.181102,660.531
0.192015,686.038
0.206189,712.055
0.246716,720.213
0.302737,727.348
0.372466,733.915
0.474121,740.961
0.537798,744.47
0.6024543,747.541
0.643579,749.357
0.684178,751.05
0.724253,752.701
0.764418,754.373
0.790465,755.494
0.815945,756.643
0.841291,757.887
0.866639,759.278
0.913919,762.767
0.941891,766.23
0.965929,772.298

File: MOF-5.csv
Relative Pressure (P/Po), Quantity Adsorbed (cm3/g STP)
4.88E-05,1.036
0.000103039,1.90804
0.000152256,2.15571
0.000192992,2.70102
0.000227689,3.15102
0.000262075,3.80533
0.000339317,17.8542
0.000410328,37.6792
0.000436056,44.4798
0.000530897,64.2932
0.00068157,83.5137
0.000825555,91.8364
0.001018034,98.6779
0.001387476,112.605
0.001754256,124.388
0.002082039,134.337
0.002634584,154.113
0.003096,173.926
0.003421564,190.692
0.00373714,210.479
0.003990249,230.263
0.004203087,250.025
0.004384442,269.787
0.004550507,289.523
0.004701429,309.269
0.004831217,329.018
0.004959268,348.724
0.005083147,368.449
0.005198735,388.165
0.005324749,407.835
0.005452929,427.54
0.005573198,447.224
0.005699939,466.945
0.005873153,486.604
0.006055369,506.438
0.006277627,526.084
0.006538265,545.771
0.006870036,565.404
0.007278209,585.064
0.007840088,604.602
0.008534543,623.844
0.009537856,643.198
0.01071683,659.897
0.0127169,679.317
0.0133568,683.812
0.0167836,703.156
0.017191,704.637
0.0216641,719.761
0.0295578,736.58
0.0374968,747.287
0.043816,753.546
0.0563548,763.026
0.0750008,772.765
0.0946229,780.029
0.12134,787.346
0.148705,793.224
0.186664,800
0.233461,807.523
0.292644,816.234
0.376873,825.795
0.477272,831.283
0.557468,832.901
0.622325,833.317
0.663689,833.227
0.703953,832.993
0.744085,832.691
0.784235,832.312
0.81037,831.949
0.835704,831.671
0.861221,831.31
0.886535,830.969
0.936029,830.322
0.962544,830.02
0.987972,829.895

File: NU-1000.csv
Relative Pressure (P/Po), Quantity Adsorbed (cm3/g STP)
0.003831,245.411
0.004887863,260.7
0.005746,280.193
0.006480225,310.4
0.006637632,318.6
0.007204856,344.6
0.007662,355.556
0.009205078,364.1
0.011492,371.014
0.0133933,377.9
0.0185368,394.8
0.02107,401.932
0.028731,419.324
0.049801,448.309
0.0668035,463
0.080447,473.43
0.099601,488.889
0.109178,494.686
0.120671,504.348
0.133721,515.5
0.147487,527.536
0.160894,539.13
0.168556,546.86
0.178132,556.522
0.18771,566.184
0.197287,583.575
0.199488,600.2
0.201118,614.493
0.204948,643.478
0.206864,660.87
0.208462,678.2
0.210695,693.72
0.224103,699.517
0.268157,707.246
0.298803,709.179
0.33328,713.043
0.358181,716.908
0.402235,720.773
0.45012,724.638
0.503751,726.57
0.530567,728.502
0.555468,730.435
0.603353,730.435
0.655069,734.3
0.704869,736.232
0.735516,738.164
0.760417,738.164
0.806386,742.029
0.856187,742.029
0.904072,745.894
0.940464,747.826
0.999842,757.488

File: NU-1102.csv
Relative Pressure (P/Po), Quantity Adsorbed (cm3/g STP)
0.009596,19.41
0.009612,38.89
0.009916,88.27
0.010389,141.52
0.0110315,234
0.0115508,318.5
0.0120946,390.4
0.012523,419.91
0.014087,450.63
0.015418,477.63
0.017685,512.55
0.018549,556.89
0.019567,592.81
0.020351,627.73
0.020587,649.53
0.022229,673.56
0.024027,691.89
0.025434,706.26
0.027544,734.5
0.029967,756.8
0.032625,778.85
0.035154,802.93
0.037262,822.2
0.043028,842.26
0.048236,867.44
0.054746,888.88
0.059644,908.95
0.062374,936.48
0.067892,962.64
0.074278,993.91
0.080293,1024.59
0.084014,1047.01
0.090585,1063.54
0.09759,1088.92
0.105525,1106.24
0.115814,1131.24
0.134969,1165.69
0.15282,1192.87
0.161188,1200.36
0.207176,1222.5
0.226389,1227.66
0.247586,1231.85
0.256944,1234.82
0.269588,1237.61
0.291032,1243.17
0.30975,1244.6
0.33423,1248.6
0.359331,1252.79
0.383316,1255.42
0.40854,1258.83
0.434137,1261.25
0.460167,1263.68
0.484834,1264.14
0.510306,1267.36
0.535346,1271.55
0.58598,1274.44
0.611212,1278.79
0.661582,1281.73
0.686571,1282.43
0.711659,1284.99
0.762915,1285.44
0.788102,1287.38
0.813091,1288.08
0.838867,1289.71
0.889237,1290.47
0.894846,1291.73
0.911964,1293.02
0.944823,1295.3

File: NU-1104.csv
Relative Pressure (P/Po), Quantity Adsorbed (cm3/g STP)
0.002546,85.6082
0.005092,238.784
0.006288706,261.9
0.007638,279.347
0.009022805,295.4
0.010183,306.397
0.012729,324.438
0.015275,342.478
0.017821,347.005
0.020367,378.559
0.022913,396.6
0.025459,410.136
0.028004,441.69
0.03055,459.731
0.033096,468.763
0.035642,477.794
0.038188,491.331
0.040734,504.867
0.045825,522.93
0.050917,559.011
0.053463,572.547
0.056009,581.579
0.058555,599.62
0.0611,640.183
0.063646,667.233
0.066192,676.264
0.068738,707.818
0.071284,730.364
0.07383,752.909
0.076376,811.49
0.078921,829.531
0.081467,852.076
0.084013,892.639
0.086559,906.175
0.091651,942.256
0.094197,960.297
0.096742,978.338
0.099288,991.874
0.101835,1000.91
0.10438,1014.44
0.106926,1027.98
0.112018,1041.54
0.114563,1059.58
0.119655,1086.65
0.122201,1091.18
0.124747,1104.71
0.127293,1118.25
0.129839,1127.28
0.132384,1136.31
0.13493,1154.35
0.137476,1167.89
0.142568,1181.45
0.145114,1190.48
0.150205,1204.04
0.152751,1208.57
0.155297,1222.1
0.160388,1231.16
0.162935,1244.69
0.165481,1253.72
0.168026,1262.76
0.173118,1285.32
0.175664,1294.35
0.178209,1307.89
0.180756,1321.43
0.183302,1334.96
0.185847,1348.5
0.188394,1362.06
0.190939,1371.04
0.193485,1411.63
0.19603,1452.19
0.198577,1524.29
0.201122,1542.33
0.203668,1564.87
0.206215,1578.41
0.20876,1591.95
0.211306,1609.99
0.213851,1628.03
0.216398,1641.56
0.218943,1650.6
0.224036,1664.15
0.226581,1673.19
0.231673,1700.26
0.234219,1713.79
0.23931,1722.85
0.241856,1727.38
0.25204,1736.48
0.259677,1741.05
0.264769,1750.1
0.269861,1754.65
0.272406,1754.67
0.277498,1759.22
0.282589,1763.77
0.285136,1763.8
0.290227,1763.84
0.297865,1768.41
0.30041,1772.94
0.308048,1773.01
0.310595,1777.54
0.315686,1777.58
0.320778,1782.13
0.325869,1782.18
0.330961,1782.22
0.34369,1786.84
0.351328,1791.41
0.35642,1791.46
0.364057,1796.03
0.369149,1796.07
0.376786,1796.14
0.381878,1800.69
0.38697,1800.74
0.402245,1800.87
0.407337,1800.92
0.412428,1800.96
0.425158,1801.08
0.432796,1805.65
0.440432,1805.72
0.455708,1810.36
0.465891,1810.45
0.488804,1815.16
0.501533,1819.77
0.511717,1819.87
0.516808,1819.91
0.524446,1824.48
0.529538,1824.53
0.537176,1824.6
0.542267,1824.64
0.549905,1824.71
0.560088,1824.8
0.570271,1824.89
0.580454,1829.49
0.593184,1834.1
0.600822,1834.17
0.611005,1834.26
0.623734,1834.37
0.631372,1838.95
0.636464,1838.99
0.654285,1843.66
0.661922,1843.72
0.672106,1843.81
0.687381,1843.95
0.689927,1843.97
0.702655,1848.59
0.710293,1848.66
0.715385,1848.7
0.733206,1848.86
0.735752,1848.88
0.745935,1848.97
0.753573,1849.04
0.763756,1849.13
0.768848,1849.18
0.77394,1853.73
0.779031,1853.77
0.784123,1853.82
0.796852,1853.93
0.81722,1854.11
0.832494,1858.75
0.840132,1858.82
0.847769,1858.89
0.863045,1863.53
0.868136,1863.57
0.87832,1863.67
0.885957,1863.73
0.903778,1863.89
0.957242,1868.87
0.964878,1868.94
0.987791,1873.65
0.992883,1878.2

File: NU-1105.csv
Relative Pressure (P/Po), Quantity Adsorbed (cm3/g STP)
0.000145,42.426
0.000228,66.6694
0.000249,72.7303
0.00029,84.852
0.000311,90.9128
0.000353,103.035
0.000436,127.278
0.003921,145.501
0.004004,169.745
0.004149,212.171
0.004232,236.414
0.004315,260.658
0.00778,272.82
0.007842,291.003
0.011307,303.166
0.014793,321.389
0.01832,351.734
0.021785,363.897
0.02527,382.12
0.028735,394.283
0.03222,412.507
0.035706,430.73
0.039171,442.893
0.042615,448.995
0.0461,467.218
0.049565,479.381
0.05303,491.543
0.053071,503.665
0.056536,515.828
0.05998,521.93
0.066868,534.133
0.070333,546.296
0.077242,564.56
0.080686,570.662
0.084171,588.886
0.087615,594.988
0.091101,613.211
0.09803,637.536
0.104939,655.801
0.115333,692.289
0.129089,710.635
0.132595,734.92
0.139525,759.245
0.149878,783.611
0.16023,807.977
0.17743,832.426
0.191247,868.955
0.205003,887.301
0.215335,905.606
0.222223,917.81
0.225709,936.033
0.232617,954.298
0.236144,984.643
0.239651,1008.93
0.239734,1033.17
0.239816,1057.41
0.243302,1075.64
0.243406,1105.94
0.246892,1124.17
0.257285,1160.65
0.264153,1166.8
0.274485,1185.1
0.281332,1185.18
0.284796,1197.35
0.295108,1209.59
0.305419,1221.84
0.319153,1234.12
0.329486,1252.43
0.346644,1264.75
0.356935,1270.94
0.367225,1277.12
0.387806,1289.49
0.40152,1295.71
0.415234,1301.94
0.425503,1302.06
0.44264,1308.33
0.463201,1314.63
0.483762,1320.94
0.497475,1327.16
0.518015,1327.41
0.538596,1339.78
0.548866,1339.9
0.559136,1340.02
0.565982,1340.1
0.583119,1346.37
0.596813,1346.53
0.631066,1353
0.65505,1359.35
0.692727,1365.86
0.713267,1366.11
0.73723,1366.4
0.764616,1366.72
0.764637,1372.78
0.792043,1379.17
0.81943,1379.5
0.822875,1385.6
0.857107,1386.01
0.891381,1398.54
0.915344,1398.83
0.918788,1404.93
0.956444,1405.38
0.966735,1411.56
0.966756,1417.63
0.980469,1423.85
0.990781,1436.09
0.994225,1442.2

File: PCN-777.csv
Relative Pressure (P/Po), Quantity Adsorbed (cm3/g STP)
0.002879,120.229
0.005757,173.643
0.010075,221.693
0.018711,261.669
0.023028,280.32
0.035982,306.875
0.047496,322.759
0.066207,346.566
0.087796,370.334
0.094992,380.93
0.109385,394.103
0.126656,415.256
0.149684,436.333
0.168395,454.795
0.188546,473.237
0.208695,494.352
0.228845,515.467
0.246116,531.275
0.269145,555.025
0.289294,578.813
0.303687,610.694
0.310883,618.617
0.318079,629.213
0.322398,637.174
0.329594,645.096
0.331034,650.423
0.33679,661.037
0.339669,666.344
0.345426,679.632
0.348305,692.957
0.355501,826.492
0.356941,834.491
0.358379,928.013
0.388605,1341.87
0.394362,1352.48
0.401558,1363.08
0.402997,1395.13
0.418829,1400.27
0.451933,1405.18
0.490793,1410.01
0.51814,1414.99
0.567074,1419.69
0.611692,1421.78
0.633281,1426.84
0.726835,1428.28
0.752741,1433.28
0.77577,1438.32
0.823266,1440.37
0.860687,1442.55
0.899547,1447.38

File: TPB-DMTP-COF.csv
Relative Pressure (P/Po), Quantity Adsorbed (cm3/g STP)
0.001665872,196.982
0.00194442,204.596
0.002868962,225.785
0.003965587,245.531
0.004867865,259.249
0.005726495,270.594
0.006790925,282.958
0.007894831,294.274
0.008900371,303.402
0.009887064,311.533
0.0119982,325.7
0.0139958,337.7
0.0191974,364.28
0.023006,380.5
0.0288494,402.005
0.0382415,432.055
0.0500177,465.046
0.0570592,483.043
0.069002,511.318
0.07905353,533.223
0.0889275,553.511
0.098903,572.689
0.117843,606.25
0.137931,638.703
0.158643,670.077
0.178416,700.003
0.197221,730.806
0.214358,773.984
0.224922,892.8
0.235341,999.326
0.268275,1042.28
0.295847,1060.15
0.326119,1078.69
0.342338,1087.51
0.360029,1096.14
0.380357,1105.53
0.399925,1114.12
0.448298,1134.84
0.50004,1156.09
0.549395,1176.26
0.599734,1197.33
0.64933,1219.07
0.699352,1242.6
0.749629,1269.76
0.798779,1301.44
0.847692,1344.86
0.896305,1413.55
0.946154,1564.01
0.99812,2313.94

File: UiO-66-NH2.csv
Relative Pressure (P/Po), Quantity Adsorbed (cm3/g STP)
0.000000848,19.5369
0.00000229,39.2633
0.00000569,58.8985
0.0000104,78.5368
0.0000212,98.1616
0.0000417,117.773
0.0000881,137.365
0.00019284,156.893
0.000441225,176.346
0.000989339,194.983
0.001921761,210.942
0.00291461,221.457
0.003944906,229.297
0.004813169,234.449
0.00594435,239.963
0.006835363,243.625
0.007914356,247.507
0.008883336,250.645
0.009932936,253.724
0.01909818,275.105
0.029133,293.921
0.0384295,310.312
0.0508289,325.711
0.0573561,331.611
0.0698217,340.196
0.0802729,345.455
0.0905916,349.261
0.100872,352.216
0.145608,360.647
0.204339,367.217
0.256823,371.572
0.307448,375.18
0.355312,378.274
0.400438,380.993
0.450467,383.837
0.500563,386.595
0.550629,389.326
0.600467,392.136
0.650694,395.114
0.70078,398.4
0.749541,402.012
0.799036,406.486
0.809765,407.799
0.820898,409.045
0.830183,410.199
0.840518,411.533
0.850135,412.867
0.860012,414.365
0.870324,416.064
0.880063,417.867
0.890037,419.924
0.899697,422.216
0.910225,425.041
0.920572,428.25
0.929732,431.883
0.939226,436.345
0.948783,442.354
0.959005,450.963
0.968528,463.104
0.977413,482.262
0.986178,513.238
0.992911,555.957